File: integ_1/LaB6_0003.chi
D:\XRDmacros\chiplotter/LaB6_0003.mar3450: Azimuth/2-theta
2-Theta Angle (Degrees)

       1500
 0.726621  18.0321
 0.740744  17.7298
 0.754866  17.9398
 0.768989  18.1497
 0.783111  18.2926
 0.797234  18.3127
 0.811356  18.4555
 0.825479  18.5851
 0.839601  18.6509
 0.853724  18.7103
 0.867846  19.0431
 0.881969  19.196
 0.896091  19.1903
 0.910214  19.4375
 0.924337  19.5682
 0.938459  19.6543
 0.952582  20.343
 0.966704  19.9325
 0.980827  19.9574
 0.994949  19.6802
 1.00907  19.4102
 1.02319  19.5018
 1.03732  19.6667
 1.05144  20.1377
 1.06556  19.9608
 1.07968  19.5957
 1.09381  19.6839
 1.10793  19.7871
 1.12205  19.6064
 1.13617  19.8791
 1.1503  20.166
 1.16442  20.1309
 1.17854  20.0968
 1.19266  20.0732
 1.20679  20.1044
 1.22091  20.2366
 1.23503  20.1352
 1.24915  20.2148
 1.26328  20.4082
 1.2774  20.603
 1.29152  20.7072
 1.30564  20.345
 1.31977  20.3214
 1.33389  20.5064
 1.34801  20.6054
 1.36213  20.8975
 1.37626  21.0024
 1.39038  20.9848
 1.4045  20.8608
 1.41862  21.0521
 1.43275  21.3081
 1.44687  21.1338
 1.46099  20.8328
 1.47511  20.9205
 1.48924  21.2255
 1.50336  20.8725
 1.51748  20.7287
 1.53161  20.9815
 1.54573  21.0229
 1.55985  21.2616
 1.57397  20.9159
 1.5881  20.8496
 1.60222  21.2264
 1.61634  21.1585
 1.63046  21.3653
 1.64459  21.1709
 1.65871  21.4154
 1.67283  21.4031
 1.68695  21.4066
 1.70108  21.5995
 1.7152  21.7373
 1.72932  21.8431
 1.74344  21.9049
 1.75757  21.6473
 1.77169  21.7078
 1.78581  21.591
 1.79993  21.3473
 1.81406  21.5518
 1.82818  21.6028
 1.8423  21.6823
 1.85642  21.5483
 1.87055  21.5813
 1.88467  21.8343
 1.89879  21.8529
 1.91291  21.9213
 1.92704  21.6529
 1.94116  21.5066
 1.95528  21.457
 1.9694  21.5342
 1.98353  21.7921
 1.99765  21.8804
 2.01177  21.7148
 2.02589  21.6927
 2.04002  21.8685
 2.05414  21.7333
 2.06826  21.6703
 2.08238  21.6757
 2.09651  21.6445
 2.11063  21.6705
 2.12475  21.3956
 2.13887  21.2506
 2.153  21.2504
 2.16712  21.3049
 2.18124  21.3982
 2.19536  21.3628
 2.20949  21.7029
 2.22361  21.6023
 2.23773  21.6099
 2.25185  21.699
 2.26598  21.7085
 2.2801  21.6393
 2.29422  21.5181
 2.30834  21.6832
 2.32247  21.6659
 2.33659  21.6372
 2.35071  21.7483
 2.36483  21.6784
 2.37896  21.5627
 2.39308  21.7539
 2.4072  21.7012
 2.42132  21.7423
 2.43545  21.7205
 2.44957  21.7075
 2.46369  21.7246
 2.47781  21.4821
 2.49194  21.5539
 2.50606  21.9363
 2.52018  21.7676
 2.5343  21.397
 2.54843  21.5369
 2.56255  21.605
 2.57667  21.6138
 2.59079  21.5677
 2.60492  21.5606
 2.61904  21.5565
 2.63316  21.6866
 2.64728  21.5091
 2.66141  21.6073
 2.67553  21.6858
 2.68965  21.7571
 2.70377  21.71
 2.7179  21.7266
 2.73202  21.7916
 2.74614  21.6974
 2.76026  21.6946
 2.77439  21.8607
 2.78851  21.7062
 2.80263  21.8263
 2.81675  21.7206
 2.83088  21.8974
 2.845  21.8271
 2.85912  22.0284
 2.87324  22.0189
 2.88737  21.9838
 2.90149  22.0309
 2.91561  22.1591
 2.92973  22.0651
 2.94386  21.8591
 2.95798  21.8776
 2.9721  21.9106
 2.98623  22.104
 3.00035  21.8839
 3.01447  21.938
 3.02859  21.9341
 3.04272  22.1328
 3.05684  22.3201
 3.07096  22.0301
 3.08508  21.9358
 3.09921  22.0654
 3.11333  22.1867
 3.12745  22.0863
 3.14157  22.4792
 3.1557  25.4398
 3.16982  35.9624
 3.18394  36.4313
 3.19806  28.6043
 3.21219  23.5816
 3.22631  22.4771
 3.24043  22.3444
 3.25455  22.2763
 3.26868  21.9349
 3.2828  21.7548
 3.29692  21.8376
 3.31104  21.5394
 3.32517  21.6757
 3.33929  21.6276
 3.35341  21.5767
 3.36753  21.4892
 3.38166  21.4293
 3.39578  21.3881
 3.4099  21.4624
 3.42402  21.6101
 3.43815  21.4789
 3.45227  21.3118
 3.46639  21.326
 3.48051  21.1575
 3.49464  21.214
 3.50876  21.1359
 3.52288  21.1886
 3.537  21.1421
 3.55113  20.9822
 3.56525  21.0363
 3.57937  20.9964
 3.59349  20.8114
 3.60762  20.8935
 3.62174  20.8099
 3.63586  20.7215
 3.64998  20.8329
 3.66411  20.7948
 3.67823  20.7376
 3.69235  20.7633
 3.70647  20.4721
 3.7206  20.5016
 3.73472  20.6481
 3.74884  20.5584
 3.76296  20.4324
 3.77709  20.4142
 3.79121  20.2402
 3.80533  20.1335
 3.81945  20.2713
 3.83358  20.2922
 3.8477  20.1951
 3.86182  20.0479
 3.87594  19.9961
 3.89007  20.0552
 3.90419  20.0766
 3.91831  19.9362
 3.93243  20.0272
 3.94656  20.0278
 3.96068  19.8763
 3.9748  19.9116
 3.98892  19.9608
 4.00305  19.7935
 4.01717  19.6396
 4.03129  19.6343
 4.04541  19.7341
 4.05954  19.6095
 4.07366  19.5658
 4.08778  19.5588
 4.1019  19.6089
 4.11603  19.3497
 4.13015  19.1508
 4.14427  19.2513
 4.15839  19.4046
 4.17252  19.454
 4.18664  19.4558
 4.20076  19.4838
 4.21488  19.4735
 4.22901  19.3147
 4.24313  19.2932
 4.25725  19.4379
 4.27137  19.3471
 4.2855  19.1899
 4.29962  19.0225
 4.31374  19.0283
 4.32786  19.0578
 4.34199  19.0771
 4.35611  19.1899
 4.37023  19.1731
 4.38436  19.1088
 4.39848  18.9931
 4.4126  19.1073
 4.42672  19.1749
 4.44085  19.1056
 4.45497  19.4038
 4.46909  21.1007
 4.48321  28.1328
 4.49733  38.1183
 4.51146  33.5203
 4.52558  23.9662
 4.5397  20.3426
 4.55383  19.4416
 4.56795  19.0711
 4.58207  18.9876
 4.59619  18.8031
 4.61032  18.7451
 4.62444  18.6862
 4.63856  18.7723
 4.65268  18.7799
 4.66681  18.6301
 4.68093  18.7077
 4.69505  18.4863
 4.70917  18.6036
 4.7233  18.5382
 4.73742  18.5038
 4.75154  18.546
 4.76566  18.5645
 4.77979  18.472
 4.79391  18.4183
 4.80803  18.26
 4.82215  18.1401
 4.83628  18.299
 4.8504  18.509
 4.86452  18.3483
 4.87864  18.2111
 4.89277  18.2622
 4.90689  18.3185
 4.92101  18.2152
 4.93513  18.0547
 4.94926  18.0738
 4.96338  18.0316
 4.9775  18.0356
 4.99162  18.0987
 5.00575  17.9544
 5.01987  18.0821
 5.03399  18.1839
 5.04811  18.1403
 5.06224  17.8968
 5.07636  17.9061
 5.09048  18.0477
 5.1046  18.0947
 5.11873  17.8504
 5.13285  17.8734
 5.14697  17.8126
 5.16109  17.8619
 5.17522  17.893
 5.18934  17.7906
 5.20346  17.7132
 5.21758  17.7085
 5.23171  17.8424
 5.24583  17.867
 5.25995  17.7665
 5.27407  17.6796
 5.2882  17.6675
 5.30232  17.6937
 5.31644  17.8114
 5.33056  17.7641
 5.34469  17.6253
 5.35881  17.5543
 5.37293  17.6688
 5.38705  17.715
 5.40118  17.796
 5.4153  17.7124
 5.42942  17.7189
 5.44354  17.6902
 5.45767  17.8265
 5.47179  18.29
 5.48591  20.2223
 5.50003  26.703
 5.51416  29.2517
 5.52828  24.198
 5.5424  19.6973
 5.55652  18.0963
 5.57065  17.6087
 5.58477  17.6361
 5.59889  17.5368
 5.61301  17.5268
 5.62714  17.4986
 5.64126  17.3176
 5.65538  17.4489
 5.6695  17.4186
 5.68363  17.2906
 5.69775  17.2878
 5.71187  17.3179
 5.72599  17.2974
 5.74012  17.2024
 5.75424  17.3324
 5.76836  17.3471
 5.78249  17.2516
 5.79661  17.2641
 5.81073  17.2087
 5.82485  17.1103
 5.83897  17.0724
 5.8531  17.202
 5.86722  17.1438
 5.88134  17.1877
 5.89546  17.2274
 5.90959  17.2042
 5.92371  17.1487
 5.93783  16.9625
 5.95196  17.1262
 5.96608  17.1086
 5.9802  17.0515
 5.99432  17.1467
 6.00845  17.2324
 6.02257  17.0729
 6.03669  17.0375
 6.05081  17.0891
 6.06494  17.0625
 6.07906  17.0407
 6.09318  17.0135
 6.1073  17.3363
 6.12143  17.1882
 6.13555  17.0217
 6.14967  17.019
 6.16379  17.0211
 6.17792  16.9588
 6.19204  16.944
 6.20616  17.0535
 6.22028  16.9839
 6.23441  16.9616
 6.24853  16.9934
 6.26265  17.0035
 6.27677  17.0127
 6.2909  16.9639
 6.30502  16.8652
 6.31914  16.914
 6.33326  17.2996
 6.34739  19.4649
 6.36151  22.2248
 6.37563  21.3095
 6.38975  18.7782
 6.40388  17.3357
 6.418  16.8931
 6.43212  16.9149
 6.44624  16.7426
 6.46037  16.7673
 6.47449  16.8099
 6.48861  16.8461
 6.50273  16.8343
 6.51686  16.83
 6.53098  16.8534
 6.5451  16.7881
 6.55922  16.6767
 6.57335  16.735
 6.58747  16.7307
 6.60159  16.7069
 6.61571  16.7355
 6.62984  16.706
 6.64396  16.6707
 6.65808  16.6981
 6.6722  16.7071
 6.68633  16.6829
 6.70045  16.7237
 6.71457  16.6262
 6.72869  16.6585
 6.74282  16.6916
 6.75694  16.5724
 6.77106  16.6275
 6.78518  16.6736
 6.79931  16.4864
 6.81343  16.5424
 6.82755  16.7223
 6.84167  16.7668
 6.8558  16.8037
 6.86992  16.7501
 6.88404  16.6244
 6.89816  16.6197
 6.91229  16.6052
 6.92641  16.4417
 6.94053  16.5563
 6.95465  16.6373
 6.96878  16.5666
 6.9829  16.489
 6.99702  16.5366
 7.01114  16.6599
 7.02527  16.5474
 7.03939  16.5686
 7.05351  16.7398
 7.06763  16.8949
 7.08176  17.6367
 7.09588  22.2433
 7.11  28.991
 7.12412  28.1235
 7.13825  23.7969
 7.15237  18.9951
 7.16649  17.1487
 7.18061  16.6012
 7.19474  16.589
 7.20886  16.5798
 7.22298  16.5362
 7.2371  16.534
 7.25123  16.4875
 7.26535  16.3
 7.27947  16.2638
 7.29359  16.258
 7.30772  16.3997
 7.32184  16.4166
 7.33596  16.4006
 7.35008  16.362
 7.36421  16.2707
 7.37833  16.4488
 7.39245  16.3747
 7.40658  16.2604
 7.4207  16.1743
 7.43482  16.2525
 7.44894  16.252
 7.46307  16.1998
 7.47719  16.2027
 7.49131  16.2163
 7.50543  16.3247
 7.51956  16.2729
 7.53368  16.3025
 7.5478  16.188
 7.56192  16.1851
 7.57605  16.1359
 7.59017  15.9672
 7.60429  16.1362
 7.61841  16.2042
 7.63254  16.1581
 7.64666  16.2454
 7.66078  16.2141
 7.6749  16.2078
 7.68903  16.2172
 7.70315  16.1482
 7.71727  16.1596
 7.73139  16.1949
 7.74552  16.3293
 7.75964  16.5992
 7.77376  18.5009
 7.78788  22.3913
 7.80201  23.7656
 7.81613  21.5566
 7.83025  18.361
 7.84437  16.7953
 7.8585  16.2361
 7.87262  16.0798
 7.88674  15.9631
 7.90086  15.9712
 7.91499  16.038
 7.92911  16.0469
 7.94323  15.9787
 7.95735  16.0025
 7.97148  16.0249
 7.9856  15.9612
 7.99972  15.9943
 8.01384  15.9612
 8.02797  16.0024
 8.04209  16.0071
 8.05621  15.9405
 8.07033  15.9938
 8.08446  15.8174
 8.09858  15.8253
 8.1127  15.9026
 8.12682  15.8236
 8.14095  15.9958
 8.15507  15.8854
 8.16919  15.9396
 8.18331  15.9094
 8.19744  15.8361
 8.21156  15.8852
 8.22568  15.9658
 8.2398  15.8944
 8.25393  15.8734
 8.26805  15.8296
 8.28217  15.8734
 8.29629  15.8359
 8.31042  15.8667
 8.32454  15.858
 8.33866  15.8063
 8.35278  15.85
 8.36691  15.8532
 8.38103  15.795
 8.39515  15.8615
 8.40927  15.8243
 8.4234  15.95
 8.43752  15.7763
 8.45164  15.7338
 8.46576  15.6917
 8.47989  15.7263
 8.49401  15.7561
 8.50813  15.786
 8.52225  15.8184
 8.53638  15.8884
 8.5505  15.8452
 8.56462  15.9054
 8.57874  15.9465
 8.59287  15.8251
 8.60699  15.8584
 8.62111  15.8114
 8.63523  15.8285
 8.64936  15.7504
 8.66348  15.7419
 8.6776  15.7914
 8.69172  15.7707
 8.70585  15.7127
 8.71997  15.7273
 8.73409  15.6741
 8.74821  15.7238
 8.76234  15.6452
 8.77646  15.6302
 8.79058  15.6722
 8.8047  15.6797
 8.81883  15.622
 8.83295  15.5588
 8.84707  15.5878
 8.86119  15.615
 8.87532  15.6839
 8.88944  15.6222
 8.90356  15.5486
 8.91769  15.6382
 8.93181  15.6198
 8.94593  15.7087
 8.96005  15.8004
 8.97418  16.0174
 8.9883  16.8322
 9.00242  17.6446
 9.01654  17.2613
 9.03067  16.7116
 9.04479  15.972
 9.05891  15.7115
 9.07303  15.6892
 9.08716  15.6659
 9.10128  15.5909
 9.1154  15.6069
 9.12952  15.6612
 9.14365  15.6223
 9.15777  15.5706
 9.17189  15.5239
 9.18601  15.4776
 9.20014  15.5045
 9.21426  15.4691
 9.22838  15.5741
 9.2425  15.5674
 9.25663  15.534
 9.27075  15.5561
 9.28487  15.5602
 9.29899  15.5077
 9.31312  15.5286
 9.32724  15.3878
 9.34136  15.3462
 9.35548  15.4456
 9.36961  15.4211
 9.38373  15.5106
 9.39785  15.4864
 9.41197  15.4503
 9.4261  15.4842
 9.44022  15.4133
 9.45434  15.4146
 9.46846  15.493
 9.48259  15.4481
 9.49671  15.5359
 9.51083  15.7249
 9.52495  16.6777
 9.53908  20.3129
 9.5532  23.2895
 9.56732  22.1964
 9.58144  18.7711
 9.59557  16.426
 9.60969  15.6165
 9.62381  15.4114
 9.63793  15.3709
 9.65206  15.2912
 9.66618  15.1869
 9.6803  15.1803
 9.69442  15.2119
 9.70855  15.2562
 9.72267  15.1755
 9.73679  15.2134
 9.75091  15.1704
 9.76504  15.1661
 9.77916  15.1761
 9.79328  15.0982
 9.8074  15.1329
 9.82153  15.163
 9.83565  15.0647
 9.84977  14.9707
 9.86389  14.9088
 9.87802  15.0027
 9.89214  15.0043
 9.90626  14.9214
 9.92038  14.9313
 9.93451  14.9328
 9.94863  14.9717
 9.96275  14.9556
 9.97687  14.8582
 9.991  14.9036
 10.0051  14.9624
 10.0192  15.0681
 10.0334  15.3336
 10.0475  16.7398
 10.0616  19.3472
 10.0757  19.3974
 10.0899  18.045
 10.104  16.5227
 10.1181  15.3994
 10.1322  14.919
 10.1463  14.7689
 10.1605  14.7359
 10.1746  14.701
 10.1887  14.6605
 10.2028  14.5699
 10.217  14.6104
 10.2311  14.5941
 10.2452  14.6017
 10.2593  14.6406
 10.2734  14.5794
 10.2876  14.5323
 10.3017  14.4743
 10.3158  14.5126
 10.3299  14.4613
 10.3441  14.4903
 10.3582  14.5012
 10.3723  14.4531
 10.3864  14.3593
 10.4006  14.3226
 10.4147  14.4537
 10.4288  14.4218
 10.4429  14.2922
 10.457  14.2398
 10.4712  14.2398
 10.4853  14.2692
 10.4994  14.3023
 10.5135  14.3323
 10.5277  14.4583
 10.5418  15.1001
 10.5559  16.9258
 10.57  17.5962
 10.5841  16.7288
 10.5983  16.014
 10.6124  14.86
 10.6265  14.3126
 10.6406  14.1508
 10.6548  14.0514
 10.6689  13.9585
 10.683  13.9637
 10.6971  13.9493
 10.7112  14.0068
 10.7254  13.9215
 10.7395  13.8831
 10.7536  13.8773
 10.7677  13.9236
 10.7819  13.919
 10.796  13.8217
 10.8101  13.8174
 10.8242  13.8303
 10.8383  13.7724
 10.8525  13.7968
 10.8666  13.7539
 10.8807  13.7887
 10.8948  13.6895
 10.909  13.7651
 10.9231  13.7993
 10.9372  13.7387
 10.9513  13.766
 10.9655  13.7325
 10.9796  13.6958
 10.9937  13.73
 11.0078  13.7288
 11.0219  13.8921
 11.0361  13.9154
 11.0502  13.821
 11.0643  13.7595
 11.0784  13.5692
 11.0926  13.5615
 11.1067  13.5254
 11.1208  13.484
 11.1349  13.3988
 11.149  13.3952
 11.1632  13.3774
 11.1773  13.2726
 11.1914  13.4113
 11.2055  13.3664
 11.2197  13.4386
 11.2338  13.4056
 11.2479  13.4804
 11.262  13.1312
 11.2761  12.6205
 11.2903  12.2304
 11.3044  11.9288